Bruker AXS Microanalysis GmbH Berlin, Germany
Esprit 1.8

Date: 05.07.2011 12:42:06
Real time: 23552
Life time: 20248
Pulse density: 70097


Detector type: XFLASH
Window type: 
Detector thickness: 0.45
Si dead layer:0

Calibration, lin.: 5.002
Calibration, abs.: -482.098
Mn FWHM: 141.704
Fano factor: 0.107
Channels: 4098

Energy Counts
-0.4821     0
-0.4771     0
-0.4721     0
-0.4671     0
-0.4621     0
-0.4571     0
-0.4521     0
-0.4471     0
-0.4421     0
-0.4371     0
-0.4321     0
-0.4271     0
-0.4221     0
-0.4171     0
-0.4121     0
-0.4071     0
-0.4021     0
-0.3971     0
-0.3921     0
-0.3871     0
-0.3821     0
-0.3771     0
-0.3721     0
-0.3671     0
-0.3621     0
-0.3571     0
-0.3521     0
-0.3471     0
-0.3421     0
-0.3371     0
-0.3321     0
 -0.327     0
 -0.322     0
 -0.317     0
 -0.312     0
 -0.307     0
 -0.302     0
 -0.297     0
 -0.292     0
 -0.287     0
 -0.282     0
 -0.277     0
 -0.272     0
 -0.267     0
 -0.262     0
 -0.257     0
 -0.252     0
 -0.247     0
 -0.242     0
 -0.237     0
 -0.232     0
 -0.227     0
 -0.222     0
 -0.217     0
 -0.212     0
 -0.207     0
 -0.202     0
 -0.197     0
 -0.192     0
 -0.187     0
 -0.182     0
 -0.177     0
 -0.172     0
 -0.167     0
 -0.162     0
 -0.157     1
 -0.152     1
 -0.147     1
 -0.142     1
 -0.137     4
 -0.132     7
 -0.127    11
 -0.122    22
 -0.117    38
 -0.112    66
 -0.107    90
 -0.102   126
 -0.097   202
 -0.092   309
 -0.087   454
 -0.082   661
 -0.077   961
 -0.072  1314
 -0.067  1783
 -0.062  2358
 -0.057  3047
 -0.052  3850
 -0.047  4657
 -0.042  5660
 -0.037  6838
 -0.032  7795
 -0.027  8749
 -0.022  9733
 -0.017 10490
 -0.012 11155
 -0.007 11467
-0.0019 11531
 0.0031 11338
 0.0081 10883
 0.0131 10280
 0.0181  9649
 0.0231  8818
 0.0281  7685
 0.0331  6534
 0.0381  5579
 0.0431  4675
 0.0481  3846
 0.0531  3004
 0.0581  2332
 0.0631  1832
 0.0681  1374
 0.0731  1025
 0.0781   723
 0.0831   511
 0.0881   356
 0.0931   252
 0.0981   181
 0.1031   126
 0.1081    89
 0.1131    64
 0.1181    46
 0.1231    24
 0.1281    17
 0.1331    16
 0.1381     6
 0.1431     3
 0.1481     2
 0.1531     4
 0.1581     4
 0.1631     3
 0.1681     2
 0.1731     1
 0.1781     2
 0.1831     2
 0.1881     0
 0.1931     1
 0.1981     1
 0.2031     0
 0.2081     0
 0.2131     0
 0.2181     1
 0.2231     0
 0.2281     0
 0.2331     0
 0.2381     0
 0.2431     0
 0.2481     0
 0.2531     0
 0.2581     0
 0.2631     0
 0.2681     0
 0.2731     0
 0.2781     0
 0.2831     0
 0.2881     0
 0.2931     0
 0.2981     0
 0.3031     0
 0.3081     0
 0.3131     0
 0.3182     0
 0.3232     0
 0.3282     0
 0.3332     0
 0.3382     0
 0.3432     0
 0.3482     4
 0.3532    34
 0.3582    47
 0.3632    55
 0.3682    57
 0.3732    61
 0.3782    54
 0.3832    45
 0.3882    39
 0.3932    36
 0.3982    36
 0.4032    36
 0.4082    49
 0.4132    52
 0.4182    46
 0.4232    46
 0.4282    51
 0.4332    54
 0.4382    64
 0.4432    47
 0.4482    30
 0.4532    23
 0.4582    26
 0.4632    33
 0.4682    32
 0.4732    28
 0.4782    28
 0.4832    30
 0.4882    33
 0.4932    38
 0.4982    31
 0.5032    24
 0.5082    26
 0.5132    28
 0.5182    26
 0.5232    32
 0.5282    34
 0.5332    29
 0.5382    46
 0.5432    37
 0.5482    28
 0.5532    27
 0.5582    22
 0.5632    24
 0.5682    34
 0.5732    47
 0.5782    33
 0.5832    31
 0.5882    29
 0.5932    18
 0.5982    21
 0.6032    16
 0.6082    22
 0.6132    20
 0.6182    13
 0.6232    20
 0.6282    22
 0.6332    14
 0.6383    19
 0.6433    27
 0.6483    21
 0.6533    20
 0.6583    24
 0.6633    18
 0.6683     6
 0.6733    15
 0.6783    18
 0.6833    28
 0.6883    27
 0.6933    24
 0.6983    23
 0.7033    15
 0.7083    11
 0.7133    20
 0.7183    16
 0.7233    11
 0.7283    10
 0.7333    10
 0.7383    14
 0.7433    15
 0.7483    16
 0.7533     6
 0.7583    16
 0.7633    16
 0.7683    15
 0.7733    11
 0.7783     5
 0.7833    15
 0.7883    18
 0.7933    12
 0.7983    10
 0.8033    13
 0.8083     7
 0.8133    11
 0.8183     9
 0.8233    13
 0.8283     3
 0.8333    11
 0.8383    19
 0.8433     8
 0.8483     4
 0.8533    24
 0.8583    13
 0.8633     3
 0.8683    17
 0.8733    26
 0.8783     9
 0.8833    14
 0.8883     8
 0.8933     6
 0.8983     6
 0.9033    11
 0.9083    14
 0.9133     7
 0.9183     7
 0.9233    17
 0.9283     7
 0.9333     9
 0.9383     9
 0.9433    12
 0.9483    12
 0.9533     2
 0.9584     5
 0.9634     3
 0.9684     5
 0.9734     6
 0.9784     0
 0.9834     6
 0.9884    10
 0.9934    12
 0.9984    15
 1.0034     7
 1.0084     8
 1.0134    22
 1.0184    17
 1.0234     4
 1.0284     4
 1.0334     1
 1.0384     1
 1.0434    12
 1.0484    19
 1.0534    10
 1.0584    10
 1.0634    13
 1.0684     8
 1.0734    15
 1.0784     3
 1.0834    10
 1.0884     9
 1.0934     1
 1.0984     0
 1.1034     0
 1.1084     3
 1.1134     7
 1.1184     1
 1.1234     2
 1.1284     0
 1.1334     3
 1.1384     3
 1.1434     2
 1.1484     3
 1.1534     6
 1.1584     7
 1.1634     0
 1.1684     0
 1.1734     0
 1.1784     0
 1.1834     0
 1.1884     6
 1.1934     4
 1.1984     2
 1.2034     0
 1.2084     7
 1.2134    10
 1.2184    13
 1.2234     0
 1.2284     5
 1.2334    12
 1.2384     4
 1.2434     5
 1.2484    18
 1.2534    19
 1.2584    10
 1.2634    12
 1.2684    23
 1.2734    34
 1.2785    32
 1.2835    34
 1.2885    31
 1.2935    31
 1.2985    31
 1.3035    18
 1.3085    28
 1.3135    26
 1.3185    27
 1.3235    23
 1.3285    42
 1.3335    45
 1.3385    40
 1.3435    34
 1.3485    40
 1.3535    43
 1.3585    50
 1.3635    57
 1.3685    54
 1.3735    58
 1.3785    54
 1.3835    57
 1.3885    55
 1.3935    46
 1.3985    42
 1.4035    46
 1.4085    56
 1.4135    45
 1.4185    54
 1.4235    43
 1.4285    48
 1.4335    65
 1.4385    50
 1.4435    40
 1.4485    46
 1.4535    20
 1.4585    22
 1.4635    30
 1.4685    32
 1.4735    37
 1.4785    43
 1.4835    14
 1.4885    11
 1.4935    14
 1.4985    13
 1.5035    13
 1.5085    10
 1.5135     4
 1.5185    11
 1.5235    10
 1.5285     4
 1.5335     4
 1.5385     2
 1.5435     2
 1.5485     5
 1.5535     6
 1.5585     2
 1.5635     4
 1.5685     0
 1.5735     0
 1.5785     7
 1.5835     2
 1.5885     0
 1.5935     1
 1.5985     1
 1.6036     0
 1.6086     0
 1.6136     0
 1.6186     5
 1.6236     2
 1.6286    10
 1.6336     0
 1.6386     0
 1.6436     0
 1.6486     4
 1.6536    13
 1.6586    11
 1.6636     9
 1.6686     5
 1.6736    23
 1.6786    35
 1.6836    44
 1.6886    35
 1.6936    37
 1.6986    36
 1.7036    69
 1.7086    60
 1.7136    70
 1.7186    73
 1.7236    89
 1.7286   113
 1.7336   112
 1.7386   106
 1.7436   124
 1.7486   139
 1.7536   145
 1.7586   136
 1.7636   127
 1.7686   129
 1.7736   115
 1.7786   116
 1.7836   129
 1.7886   131
 1.7936   152
 1.7986   148
 1.8036   150
 1.8086   154
 1.8136   143
 1.8186   134
 1.8236   165
 1.8286   160
 1.8336   154
 1.8386   149
 1.8436   147
 1.8486   137
 1.8536   145
 1.8586   134
 1.8636   136
 1.8686   150
 1.8736   128
 1.8786   121
 1.8836    99
 1.8886    93
 1.8936    93
 1.8986    86
 1.9036    78
 1.9086    77
 1.9136    65
 1.9186    63
 1.9237    66
 1.9287    57
 1.9337    46
 1.9387    33
 1.9437    41
 1.9487    30
 1.9537    25
 1.9587    39
 1.9637    37
 1.9687    31
 1.9737    23
 1.9787    20
 1.9837    16
 1.9887     7
 1.9937    13
 1.9987     8
 2.0037    23
 2.0087    11
 2.0137     9
 2.0187    17
 2.0237    24
 2.0287    12
 2.0337     0
 2.0387     3
 2.0437     7
 2.0487     2
 2.0537     3
 2.0587     2
 2.0637     0
 2.0687     0
 2.0737    13
 2.0787     0
 2.0837     0
 2.0887     0
 2.0937     4
 2.0987     2
 2.1037     0
 2.1087     6
 2.1137     8
 2.1187     0
 2.1237     0
 2.1287     0
 2.1337     0
 2.1387     0
 2.1437     0
 2.1487     0
 2.1537    12
 2.1587     7
 2.1637     7
 2.1687     1
 2.1737     0
 2.1787     0
 2.1837    16
 2.1887    27
 2.1937    20
 2.1987    31
 2.2037    46
 2.2087    39
 2.2137    58
 2.2187    60
 2.2237    72
 2.2287    97
 2.2337   106
 2.2387   129
 2.2438   144
 2.2488   165
 2.2538   186
 2.2588   208
 2.2638   207
 2.2688   244
 2.2738   257
 2.2788   255
 2.2838   273
 2.2888   292
 2.2938   320
 2.2988   331
 2.3038   330
 2.3088   331
 2.3138   343
 2.3188   363
 2.3238   397
 2.3288   415
 2.3338   412
 2.3388   399
 2.3438   413
 2.3488   409
 2.3538   436
 2.3588   410
 2.3638   441
 2.3688   431
 2.3738   402
 2.3788   424
 2.3838   437
 2.3888   430
 2.3938   428
 2.3988   412
 2.4038   409
 2.4088   387
 2.4138   347
 2.4188   346
 2.4238   333
 2.4288   324
 2.4338   320
 2.4388   295
 2.4438   290
 2.4488   274
 2.4538   266
 2.4588   249
 2.4638   225
 2.4688   218
 2.4738   191
 2.4788   186
 2.4838   185
 2.4888   200
 2.4938   209
 2.4988   153
 2.5038   154
 2.5088   160
 2.5138   157
 2.5188   155
 2.5238   163
 2.5288   142
 2.5338   129
 2.5388   155
 2.5438   184
 2.5488   186
 2.5538   200
 2.5588   225
 2.5639   257
 2.5689   252
 2.5739   283
 2.5789   327
 2.5839   324
 2.5889   338
 2.5939   396
 2.5989   436
 2.6039   477
 2.6089   473
 2.6139   457
 2.6189   496
 2.6239   479
 2.6289   456
 2.6339   460
 2.6389   444
 2.6439   485
 2.6489   459
 2.6539   401
 2.6589   400
 2.6639   370
 2.6689   337
 2.6739   320
 2.6789   278
 2.6839   229
 2.6889   222
 2.6939   205
 2.6989   168
 2.7039   161
 2.7089   134
 2.7139   111
 2.7189    88
 2.7239    80
 2.7289    60
 2.7339    54
 2.7389    71
 2.7439    58
 2.7489    51
 2.7539    61
 2.7589    52
 2.7639    51
 2.7689    35
 2.7739    34
 2.7789    50
 2.7839    62
 2.7889    50
 2.7939    56
 2.7989    62
 2.8039    44
 2.8089    50
 2.8139    51
 2.8189    43
 2.8239    54
 2.8289    58
 2.8339    56
 2.8389    48
 2.8439    51
 2.8489    34
 2.8539    40
 2.8589    52
 2.8639    41
 2.8689    42
 2.8739    32
 2.8789    31
  2.884    28
  2.889    28
  2.894    35
  2.899    28
  2.904    15
  2.909    20
  2.914    20
  2.919    11
  2.924    11
  2.929     7
  2.934    17
  2.939    30
  2.944    20
  2.949    14
  2.954    24
  2.959     5
  2.964    11
  2.969    18
  2.974    20
  2.979     6
  2.984     4
  2.989     8
  2.994    14
  2.999    19
  3.004    34
  3.009    20
  3.014    20
  3.019     5
  3.024    22
  3.029    23
  3.034    24
  3.039    23
  3.044    24
  3.049    26
  3.054    25
  3.059    37
  3.064    34
  3.069    39
  3.074    38
  3.079    50
  3.084    58
  3.089    46
  3.094    55
  3.099    51
  3.104    60
  3.109    66
  3.114    67
  3.119    83
  3.124    97
  3.129   102
  3.134    89
  3.139    87
  3.144   100
  3.149    95
  3.154    97
  3.159    86
  3.164    56
  3.169    77
  3.174    72
  3.179    56
  3.184    48
  3.189    57
  3.194    56
  3.199    61
  3.204    53
 3.2091    51
 3.2141    37
 3.2191    30
 3.2241    39
 3.2291    25
 3.2341    30
 3.2391    16
 3.2441    27
 3.2491    39
 3.2541    44
 3.2591    31
 3.2641    24
 3.2691    27
 3.2741    25
 3.2791    20
 3.2841    29
 3.2891    30
 3.2941    46
 3.2991    54
 3.3041    53
 3.3091    48
 3.3141    43
 3.3191    52
 3.3241    42
 3.3291    38
 3.3341    51
 3.3391    48
 3.3441    50
 3.3491    56
 3.3541    41
 3.3591    47
 3.3641    41
 3.3691    21
 3.3741    35
 3.3791    38
 3.3841    39
 3.3891    42
 3.3941    31
 3.3991    30
 3.4041    20
 3.4091    29
 3.4141    32
 3.4191    32
 3.4241    32
 3.4291    27
 3.4341    26
 3.4391    17
 3.4441    20
 3.4491    17
 3.4541    19
 3.4591    27
 3.4641    17
 3.4691    14
 3.4741    21
 3.4791    28
 3.4841    31
 3.4891    22
 3.4941    24
 3.4991    18
 3.5041    21
 3.5091    32
 3.5141    32
 3.5191    39
 3.5241    41
 3.5292    43
 3.5342    48
 3.5392    63
 3.5442    80
 3.5492    75
 3.5542    84
 3.5592   127
 3.5642   143
 3.5692   131
 3.5742   153
 3.5792   154
 3.5842   158
 3.5892   197
 3.5942   201
 3.5992   225
 3.6042   216
 3.6092   219
 3.6142   274
 3.6192   256
 3.6242   277
 3.6292   290
 3.6342   315
 3.6392   336
 3.6442   335
 3.6492   345
 3.6542   354
 3.6592   389
 3.6642   415
 3.6692   377
 3.6742   411
 3.6792   400
 3.6842   396
 3.6892   402
 3.6942   415
 3.6992   414
 3.7042   404
 3.7092   379
 3.7142   405
 3.7192   374
 3.7242   345
 3.7292   323
 3.7342   322
 3.7392   293
 3.7442   263
 3.7492   233
 3.7542   230
 3.7592   238
 3.7642   185
 3.7692   156
 3.7742   149
 3.7792   144
 3.7842   136
 3.7892   106
 3.7942    98
 3.7992   115
 3.8042   102
 3.8092   103
 3.8142    99
 3.8192    90
 3.8242   113
 3.8292   106
 3.8342    99
 3.8392   105
 3.8442   109
 3.8493   119
 3.8543   111
 3.8593   114
 3.8643   104
 3.8693   115
 3.8743    94
 3.8793    98
 3.8843   115
 3.8893   111
 3.8943    99
 3.8993    93
 3.9043    99
 3.9093    98
 3.9143    99
 3.9193   107
 3.9243   102
 3.9293   118
 3.9343   118
 3.9393   105
 3.9443    89
 3.9493    93
 3.9543    87
 3.9593    98
 3.9643    76
 3.9693    82
 3.9743    83
 3.9793    79
 3.9843    74
 3.9893    80
 3.9943    82
 3.9993    76
 4.0043    69
 4.0093    66
 4.0143    69
 4.0193    72
 4.0243    69
 4.0293    72
 4.0343    74
 4.0393    62
 4.0443    50
 4.0493    55
 4.0543    50
 4.0593    47
 4.0643    41
 4.0693    36
 4.0743    34
 4.0793    42
 4.0843    35
 4.0893    33
 4.0943    31
 4.0993    36
 4.1043    29
 4.1093    25
 4.1143    21
 4.1193    17
 4.1243    28
 4.1293    19
 4.1343    22
 4.1393    21
 4.1443     6
 4.1493     7
 4.1543    13
 4.1593    11
 4.1643    10
 4.1694     8
 4.1744     7
 4.1794    11
 4.1844     5
 4.1894     7
 4.1944     3
 4.1994     1
 4.2044     4
 4.2094     6
 4.2144     1
 4.2194     0
 4.2244     0
 4.2294     0
 4.2344     3
 4.2394     0
 4.2444     1
 4.2494     0
 4.2544     0
 4.2594     2
 4.2644     5
 4.2694     0
 4.2744     0
 4.2794     0
 4.2844     2
 4.2894     0
 4.2944     0
 4.2994     6
 4.3044     1
 4.3094     0
 4.3144     1
 4.3194     5
 4.3244    11
 4.3294     7
 4.3344     9
 4.3394     8
 4.3444    21
 4.3494    15
 4.3544    13
 4.3594    23
 4.3644    25
 4.3694    29
 4.3744    40
 4.3794    44
 4.3844    67
 4.3894    67
 4.3944    70
 4.3994    74
 4.4044    89
 4.4094   116
 4.4144   154
 4.4194   179
 4.4244   206
 4.4294   226
 4.4344   228
 4.4394   274
 4.4444   323
 4.4494   381
 4.4544   441
 4.4594   453
 4.4644   491
 4.4694   518
 4.4744   584
 4.4794   581
 4.4844   585
 4.4895   583
 4.4945   631
 4.4995   674
 4.5045   675
 4.5095   638
 4.5145   645
 4.5195   663
 4.5245   654
 4.5295   647
 4.5345   619
 4.5395   622
 4.5445   596
 4.5495   509
 4.5545   496
 4.5595   529
 4.5645   470
 4.5695   424
 4.5745   372
 4.5795   336
 4.5845   295
 4.5895   270
 4.5945   234
 4.5995   229
 4.6045   184
 4.6095   165
 4.6145   124
 4.6195    95
 4.6245    92
 4.6295    86
 4.6345    82
 4.6395    53
 4.6445    44
 4.6495    43
 4.6545    37
 4.6595    23
 4.6645     8
 4.6695    10
 4.6745    16
 4.6795    11
 4.6845     6
 4.6895     4
 4.6945     3
 4.6995    10
 4.7045     0
 4.7095     0
 4.7145     0
 4.7195     0
 4.7245     0
 4.7295     1
 4.7345     3
 4.7395     0
 4.7445     0
 4.7495     0
 4.7545     0
 4.7595     0
 4.7645    15
 4.7695    15
 4.7745     7
 4.7795    17
 4.7845     5
 4.7895    17
 4.7945    24
 4.7995    23
 4.8045    26
 4.8095    37
 4.8146    66
 4.8196    68
 4.8246    85
 4.8296    96
 4.8346   114
 4.8396   125
 4.8446   146
 4.8496   170
 4.8546   193
 4.8596   242
 4.8646   263
 4.8696   306
 4.8746   370
 4.8796   425
 4.8846   454
 4.8896   473
 4.8946   530
 4.8996   607
 4.9046   661
 4.9096   660
 4.9146   642
 4.9196   738
 4.9246   806
 4.9296   798
 4.9346   792
 4.9396   825
 4.9446   845
 4.9496   840
 4.9546   888
 4.9596   870
 4.9646   829
 4.9696   821
 4.9746   819
 4.9796   824
 4.9846   757
 4.9896   728
 4.9946   663
 4.9996   591
 5.0046   545
 5.0096   534
 5.0146   460
 5.0196   420
 5.0246   385
 5.0296   351
 5.0346   327
 5.0396   282
 5.0446   250
 5.0496   225
 5.0546   196
 5.0596   168
 5.0646   135
 5.0696   128
 5.0746   108
 5.0796    82
 5.0846    60
 5.0896    51
 5.0946    50
 5.0996    40
 5.1046    19
 5.1096     7
 5.1146     6
 5.1196     6
 5.1246     7
 5.1296     3
 5.1347     9
 5.1397    12
 5.1447     8
 5.1497     7
 5.1547     8
 5.1597     4
 5.1647     0
 5.1697     0
 5.1747     0
 5.1797     7
 5.1847     9
 5.1897     0
 5.1947     0
 5.1997     1
 5.2047     5
 5.2097     4
 5.2147     9
 5.2197    16
 5.2247    12
 5.2297     8
 5.2347    17
 5.2397    22
 5.2447    26
 5.2497    25
 5.2547    22
 5.2597    27
 5.2647    39
 5.2697    52
 5.2747    66
 5.2797    74
 5.2847    95
 5.2897   120
 5.2947   128
 5.2997   140
 5.3047   178
 5.3097   210
 5.3147   251
 5.3197   298
 5.3247   334
 5.3297   363
 5.3347   397
 5.3397   467
 5.3447   541
 5.3497   600
 5.3547   643
 5.3597   681
 5.3647   729
 5.3697   739
 5.3747   850
 5.3797   920
 5.3847   962
 5.3897   974
 5.3947  1032
 5.3997  1074
 5.4047  1070
 5.4097  1092
 5.4147  1113
 5.4197  1089
 5.4247  1074
 5.4297  1123
 5.4347  1087
 5.4397  1038
 5.4447   979
 5.4497   927
 5.4548   872
 5.4598   815
 5.4648   782
 5.4698   758
 5.4748   694
 5.4798   608
 5.4848   575
 5.4898   549
 5.4948   486
 5.4998   398
 5.5048   361
 5.5098   329
 5.5148   300
 5.5198   262
 5.5248   225
 5.5298   180
 5.5348   146
 5.5398   125
 5.5448   116
 5.5498   106
 5.5548    82
 5.5598    61
 5.5648    47
 5.5698    37
 5.5748    41
 5.5798    36
 5.5848    17
 5.5898    12
 5.5948    26
 5.5998    21
 5.6048    11
 5.6098    11
 5.6148     2
 5.6198     0
 5.6248     0
 5.6298     4
 5.6348     0
 5.6398     0
 5.6448     3
 5.6498     2
 5.6548     0
 5.6598     2
 5.6648     4
 5.6698     4
 5.6748     8
 5.6798     5
 5.6848     1
 5.6898     4
 5.6948     6
 5.6998    11
 5.7048     6
 5.7098     8
 5.7148    15
 5.7198    21
 5.7248    27
 5.7298    23
 5.7348    23
 5.7398    44
 5.7448    46
 5.7498    50
 5.7548    95
 5.7598   110
 5.7648   119
 5.7698   121
 5.7749   129
 5.7799   158
 5.7849   181
 5.7899   248
 5.7949   290
 5.7999   327
 5.8049   356
 5.8099   391
 5.8149   445
 5.8199   508
 5.8249   575
 5.8299   620
 5.8349   682
 5.8399   728
 5.8449   767
 5.8499   839
 5.8549   931
 5.8599   949
 5.8649   962
 5.8699  1062
 5.8749  1133
 5.8799  1137
 5.8849  1168
 5.8899  1192
 5.8949  1202
 5.8999  1191
 5.9049  1229
 5.9099  1220
 5.9149  1175
 5.9199  1153
 5.9249  1128
 5.9299  1081
 5.9349  1037
 5.9399  1016
 5.9449   950
 5.9499   910
 5.9549   829
 5.9599   759
 5.9649   777
 5.9699   735
 5.9749   646
 5.9799   593
 5.9849   530
 5.9899   473
 5.9949   406
 5.9999   359
 6.0049   309
 6.0099   274
 6.0149   263
 6.0199   238
 6.0249   203
 6.0299   155
 6.0349   135
 6.0399   125
 6.0449    94
 6.0499    74
 6.0549    77
 6.0599    69
 6.0649    47
 6.0699    42
 6.0749    34
 6.0799    18
 6.0849     8
 6.0899     5
  6.095     3
    6.1    15
  6.105    17
   6.11    14
  6.115     4
   6.12     1
  6.125     6
   6.13     2
  6.135     0
   6.14     0
  6.145    10
   6.15     8
  6.155     0
   6.16     3
  6.165     6
   6.17     4
  6.175    13
   6.18    12
  6.185     7
   6.19     7
  6.195     4
    6.2    11
  6.205    14
   6.21     9
  6.215    17
   6.22    34
  6.225    40
   6.23    45
  6.235    52
   6.24    59
  6.245    70
   6.25    82
  6.255    91
   6.26   112
  6.265   134
   6.27   161
  6.275   192
   6.28   230
  6.285   274
   6.29   311
  6.295   369
    6.3   435
  6.305   458
   6.31   506
  6.315   584
   6.32   644
  6.325   741
   6.33   786
  6.335   869
   6.34   960
  6.345  1021
   6.35  1096
  6.355  1150
   6.36  1191
  6.365  1298
   6.37  1395
  6.375  1442
   6.38  1478
  6.385  1464
   6.39  1489
  6.395  1557
    6.4  1585
  6.405  1617
   6.41  1580
 6.4151  1502
 6.4201  1493
 6.4251  1523
 6.4301  1506
 6.4351  1450
 6.4401  1378
 6.4451  1347
 6.4501  1298
 6.4551  1226
 6.4601  1163
 6.4651  1033
 6.4701   930
 6.4751   874
 6.4801   807
 6.4851   720
 6.4901   683
 6.4951   661
 6.5001   612
 6.5051   545
 6.5101   478
 6.5151   431
 6.5201   405
 6.5251   375
 6.5301   326
 6.5351   266
 6.5401   230
 6.5451   214
 6.5501   180
 6.5551   166
 6.5601   152
 6.5651   121
 6.5701    98
 6.5751    79
 6.5801    69
 6.5851    63
 6.5901    61
 6.5951    56
 6.6001    44
 6.6051    35
 6.6101    29
 6.6151    30
 6.6201    29
 6.6251    22
 6.6301    22
 6.6351    19
 6.6401    15
 6.6451    12
 6.6501    12
 6.6551    11
 6.6601     8
 6.6651     5
 6.6701     4
 6.6751     6
 6.6801     5
 6.6851    10
 6.6901    11
 6.6951     5
 6.7001     3
 6.7051     6
 6.7101     8
 6.7151     6
 6.7201     9
 6.7251    10
 6.7301    21
 6.7351    29
 6.7402    31
 6.7452    44
 6.7502    48
 6.7552    47
 6.7602    66
 6.7652    81
 6.7702    87
 6.7752   102
 6.7802   130
 6.7852   168
 6.7902   186
 6.7952   205
 6.8002   244
 6.8052   307
 6.8102   341
 6.8152   365
 6.8202   431
 6.8252   472
 6.8302   496
 6.8352   559
 6.8402   661
 6.8452   717
 6.8502   776
 6.8552   841
 6.8602   901
 6.8652  1010
 6.8702  1076
 6.8752  1105
 6.8802  1149
 6.8852  1286
 6.8902  1354
 6.8952  1438
 6.9002  1574
 6.9052  1612
 6.9102  1633
 6.9152  1632
 6.9202  1610
 6.9252  1669
 6.9302  1687
 6.9352  1599
 6.9402  1602
 6.9452  1634
 6.9502  1608
 6.9552  1553
 6.9602  1491
 6.9652  1420
 6.9702  1369
 6.9752  1330
 6.9802  1268
 6.9852  1172
 6.9902  1122
 6.9952  1042
 7.0002   958
 7.0052   930
 7.0102   858
 7.0152   772
 7.0202   728
 7.0252   648
 7.0302   558
 7.0352   548
 7.0402   544
 7.0452   485
 7.0502   439
 7.0552   457
 7.0603   428
 7.0653   372
 7.0703   332
 7.0753   291
 7.0803   284
 7.0853   271
 7.0903   228
 7.0953   216
 7.1003   215
 7.1053   199
 7.1103   181
 7.1153   161
 7.1203   149
 7.1253   133
 7.1303   117
 7.1353   110
 7.1403    85
 7.1453    80
 7.1503    95
 7.1553    72
 7.1603    58
 7.1653    55
 7.1703    55
 7.1753    48
 7.1803    25
 7.1853    31
 7.1903    37
 7.1953    19
 7.2003    17
 7.2053    20
 7.2103    13
 7.2153    17
 7.2203    17
 7.2253    22
 7.2303    31
 7.2353    25
 7.2403    12
 7.2453    13
 7.2503    19
 7.2553    18
 7.2603    26
 7.2653    23
 7.2703    27
 7.2753    41
 7.2803    44
 7.2853    50
 7.2903    65
 7.2953    78
 7.3003    83
 7.3053    95
 7.3103   111
 7.3153   123
 7.3203   147
 7.3253   171
 7.3303   193
 7.3353   245
 7.3403   274
 7.3453   304
 7.3503   340
 7.3553   377
 7.3603   435
 7.3653   502
 7.3703   572
 7.3753   644
 7.3804   733
 7.3854   812
 7.3904   867
 7.3954   967
 7.4004  1071
 7.4054  1114
 7.4104  1215
 7.4154  1345
 7.4204  1447
 7.4254  1498
 7.4304  1547
 7.4354  1647
 7.4404  1729
 7.4454  1746
 7.4504  1825
 7.4554  1880
 7.4604  1893
 7.4654  1935
 7.4704  1938
 7.4754  1948
 7.4804  1928
 7.4854  1875
 7.4904  1836
 7.4954  1831
 7.5004  1801
 7.5054  1745
 7.5104  1641
 7.5154  1620
 7.5204  1493
 7.5254  1415
 7.5304  1390
 7.5354  1331
 7.5404  1246
 7.5454  1189
 7.5504  1136
 7.5554  1010
 7.5604   908
 7.5654   822
 7.5704   791
 7.5754   745
 7.5804   688
 7.5854   575
 7.5904   528
 7.5954   521
 7.6004   493
 7.6054   444
 7.6104   417
 7.6154   421
 7.6204   396
 7.6254   342
 7.6304   316
 7.6354   308
 7.6404   286
 7.6454   289
 7.6504   251
 7.6554   217
 7.6604   246
 7.6654   253
 7.6704   232
 7.6754   229
 7.6804   205
 7.6854   193
 7.6904   186
 7.6954   173
 7.7005   182
 7.7055   158
 7.7105   134
 7.7155   130
 7.7205   111
 7.7255   100
 7.7305    98
 7.7355    98
 7.7405    80
 7.7455    72
 7.7505    68
 7.7555    63
 7.7605    52
 7.7655    52
 7.7705    54
 7.7755    51
 7.7805    54
 7.7855    45
 7.7905    38
 7.7955    35
 7.8005    35
 7.8055    32
 7.8105    24
 7.8155    25
 7.8205    27
 7.8255    28
 7.8305    30
 7.8355    45
 7.8405    41
 7.8455    48
 7.8505    55
 7.8555    62
 7.8605    84
 7.8655   104
 7.8705   118
 7.8755   140
 7.8805   163
 7.8855   166
 7.8905   219
 7.8955   237
 7.9005   268
 7.9055   316
 7.9105   370
 7.9155   393
 7.9205   434
 7.9255   523
 7.9305   603
 7.9355   700
 7.9405   765
 7.9455   849
 7.9505   947
 7.9555  1012
 7.9605  1096
 7.9655  1197
 7.9705  1318
 7.9755  1411
 7.9805  1457
 7.9855  1501
 7.9905  1649
 7.9955  1797
 8.0005  1895
 8.0055  1980
 8.0105  1979
 8.0155  2008
 8.0206  2057
 8.0256  2095
 8.0306  2173
 8.0356  2194
 8.0406  2191
 8.0456  2146
 8.0506  2129
 8.0556  2226
 8.0606  2157
 8.0656  2093
 8.0706  2019
 8.0756  1935
 8.0806  1883
 8.0856  1858
 8.0906  1730
 8.0956  1627
 8.1006  1571
 8.1056  1506
 8.1106  1359
 8.1156  1243
 8.1206  1203
 8.1256  1107
 8.1306   993
 8.1356   907
 8.1406   808
 8.1456   789
 8.1506   710
 8.1556   642
 8.1606   633
 8.1656   565
 8.1706   524
 8.1756   470
 8.1806   432
 8.1856   426
 8.1906   376
 8.1956   335
 8.2006   314
 8.2056   316
 8.2106   312
 8.2156   289
 8.2206   285
 8.2256   274
 8.2306   283
 8.2356   283
 8.2406   283
 8.2456   279
 8.2506   276
 8.2556   267
 8.2606   259
 8.2656   238
 8.2706   238
 8.2756   264
 8.2806   242
 8.2856   235
 8.2906   265
 8.2956   260
 8.3006   238
 8.3056   239
 8.3106   226
 8.3156   185
 8.3206   185
 8.3256   182
 8.3306   161
 8.3356   141
 8.3406   136
 8.3457   142
 8.3507   140
 8.3557   127
 8.3607   122
 8.3657   107
 8.3707    98
 8.3757    91
 8.3807    79
 8.3857    69
 8.3907    71
 8.3957    62
 8.4007    57
 8.4057    50
 8.4107    61
 8.4157    60
 8.4207    59
 8.4257    59
 8.4307    82
 8.4357    96
 8.4407    88
 8.4457    95
 8.4507   122
 8.4557   128
 8.4607   136
 8.4657   164
 8.4707   188
 8.4757   204
 8.4807   239
 8.4857   292
 8.4907   355
 8.4957   402
 8.5007   444
 8.5057   488
 8.5107   574
 8.5157   633
 8.5207   698
 8.5257   741
 8.5307   843
 8.5357   957
 8.5407  1043
 8.5457  1179
 8.5507  1302
 8.5557  1395
 8.5607  1450
 8.5657  1526
 8.5707  1591
 8.5757  1677
 8.5807  1874
 8.5857  1990
 8.5907  2004
 8.5957  2093
 8.6007  2168
 8.6057  2229
 8.6107  2238
 8.6157  2276
 8.6207  2408
 8.6257  2405
 8.6307  2375
 8.6357  2410
 8.6407  2416
 8.6457  2380
 8.6507  2317
 8.6557  2271
 8.6607  2154
 8.6658  2048
 8.6708  2001
 8.6758  1998
 8.6808  1883
 8.6858  1797
 8.6908  1685
 8.6958  1585
 8.7008  1520
 8.7058  1402
 8.7108  1288
 8.7158  1174
 8.7208  1076
 8.7258   990
 8.7308   909
 8.7358   817
 8.7408   765
 8.7458   707
 8.7508   593
 8.7558   541
 8.7608   527
 8.7658   464
 8.7708   399
 8.7758   378
 8.7808   335
 8.7858   289
 8.7908   266
 8.7958   254
 8.8008   251
 8.8058   256
 8.8108   254
 8.8158   252
 8.8208   237
 8.8258   221
 8.8308   229
 8.8358   255
 8.8408   271
 8.8458   308
 8.8508   285
 8.8558   270
 8.8608   283
 8.8658   309
 8.8708   296
 8.8758   315
 8.8808   340
 8.8858   333
 8.8908   348
 8.8958   383
 8.9008   399
 8.9058   372
 8.9108   363
 8.9158   331
 8.9208   330
 8.9258   379
 8.9308   392
 8.9358   360
 8.9408   341
 8.9458   315
 8.9508   291
 8.9558   295
 8.9608   306
 8.9658   312
 8.9708   301
 8.9758   312
 8.9808   282
 8.9859   248
 8.9909   241
 8.9959   224
 9.0009   199
 9.0059   196
 9.0109   194
 9.0159   178
 9.0209   160
 9.0259   137
 9.0309   124
 9.0359   115
 9.0409   110
 9.0459   128
 9.0509   100
 9.0559    79
 9.0609    83
 9.0659    78
 9.0709    79
 9.0759    78
 9.0809    87
 9.0859    94
 9.0909    79
 9.0959    74
 9.1009    63
 9.1059    67
 9.1109    67
 9.1159    58
 9.1209    72
 9.1259    67
 9.1309    59
 9.1359    57
 9.1409    64
 9.1459    75
 9.1509    79
 9.1559    76
 9.1609    71
 9.1659    74
 9.1709    88
 9.1759    92
 9.1809    86
 9.1859    91
 9.1909    90
 9.1959    83
 9.2009    68
 9.2059    74
 9.2109    68
 9.2159    64
 9.2209    75
 9.2259    75
 9.2309    75
 9.2359    77
 9.2409    49
 9.2459    53
 9.2509    56
 9.2559    62
 9.2609    53
 9.2659    51
 9.2709    46
 9.2759    51
 9.2809    52
 9.2859    48
 9.2909    39
 9.2959    39
 9.3009    42
  9.306    37
  9.311    32
  9.316    32
  9.321    27
  9.326    32
  9.331    39
  9.336    32
  9.341    27
  9.346    26
  9.351    31
  9.356    21
  9.361    24
  9.366    25
  9.371    22
  9.376    25
  9.381    37
  9.386    28
  9.391    34
  9.396    36
  9.401    25
  9.406    27
  9.411    38
  9.416    42
  9.421    53
  9.426    64
  9.431    73
  9.436    54
  9.441    68
  9.446    83
  9.451    92
  9.456   111
  9.461   113
  9.466   133
  9.471   123
  9.476   155
  9.481   165
  9.486   175
  9.491   196
  9.496   191
  9.501   183
  9.506   211
  9.511   234
  9.516   246
  9.521   254
  9.526   271
  9.531   294
  9.536   269
  9.541   297
  9.546   304
  9.551   311
  9.556   288
  9.561   308
  9.566   318
  9.571   312
  9.576   295
  9.581   313
  9.586   343
  9.591   306
  9.596   293
  9.601   257
  9.606   286
  9.611   286
  9.616   263
  9.621   249
 9.6261   224
 9.6311   206
 9.6361   189
 9.6411   174
 9.6461   167
 9.6511   167
 9.6561   171
 9.6611   161
 9.6661   126
 9.6711   112
 9.6761    96
 9.6811   100
 9.6861    91
 9.6911    86
 9.6961    70
 9.7011    69
 9.7061    52
 9.7111    45
 9.7161    40
 9.7211    46
 9.7261    47
 9.7311    37
 9.7361    33
 9.7411    25
 9.7461    20
 9.7511    26
 9.7561    25
 9.7611    18
 9.7661    12
 9.7711    21
 9.7761    16
 9.7811    20
 9.7861    18
 9.7911    19
 9.7961    17
 9.8011    11
 9.8061     8
 9.8111    11
 9.8161     9
 9.8211     6
 9.8261     3
 9.8311    16
 9.8361    12
 9.8411     8
 9.8461    13
 9.8511    11
 9.8561    15
 9.8611     7
 9.8661     9
 9.8711    13
 9.8761    12
 9.8811    12
 9.8861    11
 9.8911     3
 9.8961     8
 9.9011    15
 9.9061    12
 9.9111    18
 9.9161    17
 9.9211    11
 9.9261    18
 9.9311    16
 9.9361    13
 9.9411    20
 9.9461    17
 9.9512    18
 9.9562    26
 9.9612    14
 9.9662     5
 9.9712    12
 9.9762    20
 9.9812    30
 9.9862    22
 9.9912    30
 9.9962    26
10.0012    36
10.0062    36
10.0112    40
10.0162    43
10.0212    44
10.0262    54
10.0312    63
10.0362    56
10.0412    78
10.0462    80
10.0512    84
10.0562    83
10.0612   105
10.0662   126
10.0712   140
10.0762   162
10.0812   166
10.0862   188
10.0912   213
10.0962   234
10.1012   272
10.1062   294
10.1112   309
10.1162   336
10.1212   373
10.1262   404
10.1312   427
10.1362   476
10.1412   530
10.1462   576
10.1512   647
10.1562   720
10.1612   741
10.1662   802
10.1712   821
10.1762   878
10.1812   908
10.1862   985
10.1912  1108
10.1962  1156
10.2012  1164
10.2062  1254
10.2112  1278
10.2162  1329
10.2212  1401
10.2262  1473
10.2312  1512
10.2362  1506
10.2412  1529
10.2462  1536
10.2512  1555
10.2562  1589
10.2612  1592
10.2662  1634
10.2713  1624
10.2763  1569
10.2813  1554
10.2863  1595
10.2913  1515
10.2963  1528
10.3013  1485
10.3063  1465
10.3113  1399
10.3163  1393
10.3213  1310
10.3263  1359
10.3313  1296
10.3363  1255
10.3413  1256
10.3463  1206
10.3513  1142
10.3563  1145
10.3613  1149
10.3663  1173
10.3713  1224
10.3763  1216
10.3813  1211
10.3863  1236
10.3913  1318
10.3963  1378
10.4013  1440
10.4063  1545
10.4113  1630
10.4163  1711
10.4213  1843
10.4263  1903
10.4313  2093
10.4363  2186
10.4413  2317
10.4463  2490
10.4513  2575
10.4563  2731
10.4613  2841
10.4663  3062
10.4713  3290
10.4763  3324
10.4813  3488
10.4863  3657
10.4913  3774
10.4963  4006
10.5013  4124
10.5063  4148
10.5113  4208
10.5163  4328
10.5213  4398
10.5263  4361
10.5313  4335
10.5363  4339
10.5413  4334
10.5463  4410
10.5513  4361
10.5563  4264
10.5613  4122
10.5663  4050
10.5713  3896
10.5763  3881
10.5813  3742
10.5863  3519
10.5914  3400
10.5964  3227
10.6014  3100
10.6064  2931
10.6114  2794
10.6164  2571
10.6214  2353
10.6264  2176
10.6314  2075
10.6364  1940
10.6414  1787
10.6464  1644
10.6514  1495
10.6564  1286
10.6614  1220
10.6664  1110
10.6714   968
10.6764   860
10.6814   771
10.6864   722
10.6914   618
10.6964   549
10.7014   480
10.7064   436
10.7114   387
10.7164   345
10.7214   292
10.7264   253
10.7314   211
10.7364   200
10.7414   184
10.7464   158
10.7514   144
10.7564   126
10.7614    94
10.7664    91
10.7714    74
10.7764    79
10.7814    82
10.7864    58
10.7914    53
10.7964    54
10.8014    41
10.8064    40
10.8114    46
10.8164    38
10.8214    37
10.8264    41
10.8314    38
10.8364    31
10.8414    27
10.8464    40
10.8514    44
10.8564    42
10.8614    45
10.8664    42
10.8714    34
10.8764    34
10.8814    33
10.8864    23
10.8914    31
10.8964    45
10.9014    48
10.9064    55
10.9115    53
10.9165    48
10.9215    54
10.9265    70
10.9315    63
10.9365    67
10.9415    61
10.9465    67
10.9515    87
10.9565    82
10.9615    85
10.9665    94
10.9715   120
10.9765   113
10.9815   125
10.9865   137
10.9915   154
10.9965   175
11.0015   188
11.0065   222
11.0115   256
11.0165   245
11.0215   262
11.0265   311
11.0315   363
11.0365   418
11.0415   454
11.0465   488
11.0515   534
11.0565   607
11.0615   672
11.0665   750
11.0715   854
11.0765   908
11.0815  1012
11.0865  1033
11.0915  1117
11.0965  1277
11.1015  1387
11.1065  1509
11.1115  1568
11.1165  1732
11.1215  1832
11.1265  1972
11.1315  2065
11.1365  2183
11.1415  2289
11.1465  2479
11.1515  2625
11.1565  2622
11.1615  2696
11.1665  2837
11.1715  2827
11.1765  2983
11.1815  3119
11.1865  3182
11.1915  3146
11.1965  3200
11.2015  3234
11.2065  3222
11.2115  3278
11.2165  3291
11.2215  3210
11.2265  3221
11.2316  3133
11.2366  3019
11.2416  2853
11.2466  2870
11.2516  2713
11.2566  2626
11.2616  2538
11.2666  2420
11.2716  2373
11.2766  2289
11.2816  2154
11.2866  1958
11.2916  1887
11.2966  1769
11.3016  1650
11.3066  1498
11.3116  1411
11.3166  1311
11.3216  1187
11.3266  1076
11.3316   948
11.3366   875
11.3416   773
11.3466   732
11.3516   658
11.3566   621
11.3616   564
11.3666   471
11.3716   404
11.3766   365
11.3816   312
11.3866   283
11.3916   283
11.3966   243
11.4016   194
11.4066   183
11.4116   158
11.4166   151
11.4216   136
11.4266   119
11.4316   109
11.4366    89
11.4416    76
11.4466    66
11.4516    61
11.4566    73
11.4616    53
11.4666    48
11.4716    52
11.4766    50
11.4816    44
11.4866    45
11.4916    43
11.4966    42
11.5016    37
11.5066    48
11.5116    53
11.5166    39
11.5216    50
11.5266    63
11.5316    56
11.5366    66
11.5416    61
11.5466    61
11.5516    65
11.5567    73
11.5617    86
11.5667    99
11.5717    92
11.5767   115
11.5817   117
11.5867   116
11.5917   149
11.5967   162
11.6017   163
11.6067   175
11.6117   180
11.6167   198
11.6217   217
11.6267   244
11.6317   285
11.6367   291
11.6417   290
11.6467   276
11.6517   300
11.6567   333
11.6617   316
11.6667   338
11.6717   385
11.6767   414
11.6817   407
11.6867   392
11.6917   407
11.6967   464
11.7017   456
11.7067   435
11.7117   448
11.7167   444
11.7217   430
11.7267   424
11.7317   451
11.7367   488
11.7417   458
11.7467   438
11.7517   396
11.7567   416
11.7617   416
11.7667   369
11.7717   381
11.7767   370
11.7817   344
11.7867   330
11.7917   349
11.7967   321
11.8017   298
11.8067   325
11.8117   304
11.8167   275
11.8217   277
11.8267   256
11.8317   254
11.8367   236
11.8417   211
11.8467   213
11.8517   212
11.8567   202
11.8617   200
11.8667   195
11.8717   178
11.8768   168
11.8818   158
11.8868   147
11.8918   143
11.8968   151
11.9018   137
11.9068   145
11.9118   128
11.9168   126
11.9218   131
11.9268   135
11.9318   129
11.9368   144
11.9418   135
11.9468   120
11.9518   110
11.9568   105
11.9618   115
11.9668   117
11.9718   122
11.9768   123
11.9818   118
11.9868   113
11.9918   120
11.9968   140
12.0018   137
12.0068   127
12.0118   125
12.0168   134
12.0218   119
12.0268   141
12.0318   136
12.0368   159
12.0418   172
12.0468   174
12.0518   189
12.0568   222
12.0618   233
12.0668   257
12.0718   259
12.0768   297
12.0818   333
12.0868   366
12.0918   356
12.0968   400
12.1018   448
12.1068   490
12.1118   511
12.1168   536
12.1218   594
12.1268   634
12.1318   660
12.1368   711
12.1418   813
12.1468   848
12.1518   849
12.1568   880
12.1618   915
12.1668   943
12.1718   952
12.1768   991
12.1818  1021
12.1868  1027
12.1918  1054
12.1969  1116
12.2019  1116
12.2069  1120
12.2119  1129
12.2169  1151
12.2219  1194
12.2269  1259
12.2319  1195
12.2369  1149
12.2419  1154
12.2469  1155
12.2519  1115
12.2569  1067
12.2619  1059
12.2669  1032
12.2719  1040
12.2769  1028
12.2819  1018
12.2869   991
12.2919   988
12.2969   911
12.3019   862
12.3069   863
12.3119   850
12.3169   805
12.3219   751
12.3269   698
12.3319   671
12.3369   674
12.3419   623
12.3469   604
12.3519   628
12.3569   601
12.3619   567
12.3669   573
12.3719   547
12.3769   518
12.3819   505
12.3869   527
12.3919   549
12.3969   562
12.4019   540
12.4069   568
12.4119   585
12.4169   562
12.4219   569
12.4269   599
12.4319   607
12.4369   610
12.4419   639
12.4469   670
12.4519   668
12.4569   673
12.4619   715
12.4669   732
12.4719   730
12.4769   724
12.4819   730
12.4869   786
12.4919   845
12.4969   872
12.5019   886
12.5069   912
12.5119   908
 12.517   966
 12.522   998
 12.527   961
 12.532  1011
 12.537  1034
 12.542  1050
 12.547  1027
 12.552  1073
 12.557  1098
 12.562  1158
 12.567  1145
 12.572  1112
 12.577  1138
 12.582  1155
 12.587  1143
 12.592  1143
 12.597  1117
 12.602  1100
 12.607  1137
 12.612  1128
 12.617  1112
 12.622  1125
 12.627  1083
 12.632  1050
 12.637  1044
 12.642  1038
 12.647   984
 12.652   926
 12.657   909
 12.662   898
 12.667   831
 12.672   815
 12.677   827
 12.682   790
 12.687   738
 12.692   718
 12.697   674
 12.702   621
 12.707   571
 12.712   568
 12.717   526
 12.722   467
 12.727   445
 12.732   434
 12.737   422
 12.742   377
 12.747   348
 12.752   318
 12.757   312
 12.762   303
 12.767   273
 12.772   245
 12.777   236
 12.782   243
 12.787   223
 12.792   188
 12.797   174
 12.802   169
 12.807   154
 12.812   146
 12.817   119
 12.822   122
 12.827   120
 12.832    95
12.8371    86
12.8421   104
12.8471   103
12.8521    96
12.8571    88
12.8621    86
12.8671    75
12.8721    61
12.8771    71
12.8821    76
12.8871    78
12.8921    69
12.8971    66
12.9021    66
12.9071    64
12.9121    56
12.9171    55
12.9221    54
12.9271    52
12.9321    54
12.9371    53
12.9421    57
12.9471    57
12.9521    52
12.9571    57
12.9621    59
12.9671    51
12.9721    58
12.9771    55
12.9821    55
12.9871    59
12.9921    57
12.9971    59
13.0021    56
13.0071    50
13.0121    47
13.0171    42
13.0221    42
13.0271    45
13.0321    50
13.0371    54
13.0421    45
13.0471    41
13.0521    48
13.0571    49
13.0621    47
13.0671    41
13.0721    36
13.0771    35
13.0821    41
13.0871    41
13.0921    39
13.0971    40
13.1021    32
13.1071    35
13.1121    40
13.1171    36
13.1221    28
13.1271    33
13.1321    30
13.1371    29
13.1421    26
13.1471    21
13.1521    18
13.1572    18
13.1622    23
13.1672    18
13.1722    15
13.1772    16
13.1822    15
13.1872    20
13.1922    21
13.1972    21
13.2022    22
13.2072    21
13.2122    22
13.2172    20
13.2222    19
13.2272    21
13.2322    24
13.2372    22
13.2422    24
13.2472    18
13.2522    19
13.2572    20
13.2622    17
13.2672    20
13.2722    19
13.2772    15
13.2822    15
13.2872    15
13.2922    18
13.2972    24
13.3022    29
13.3072    28
13.3122    27
13.3172    18
13.3222    18
13.3272    29
13.3322    26
13.3372    23
13.3422    23
13.3472    18
13.3522    15
13.3572    14
13.3622    16
13.3672    18
13.3722    14
13.3772    17
13.3822    19
13.3872    17
13.3922    23
13.3972    21
13.4022    20
13.4072    19
13.4122    19
13.4172    19
13.4222    21
13.4272    24
13.4322    23
13.4372    24
13.4422    24
13.4472    27
13.4522    29
13.4572    24
13.4622    25
13.4672    27
13.4722    20
13.4772    18
13.4823    24
13.4873    25
13.4923    21
13.4973    18
13.5023    16
13.5073    18
13.5123    18
13.5173    18
13.5223    16
13.5273    19
13.5323    25
13.5373    24
13.5423    20
13.5473    20
13.5523    22
13.5573    22
13.5623    23
13.5673    23
13.5723    17
13.5773    13
13.5823    18
13.5873    23
13.5923    26
13.5973    26
13.6023    20
13.6073    19
13.6123    16
13.6173    17
13.6223    22
13.6273    22
13.6323    23
13.6373    24
13.6423    27
13.6473    28
13.6523    23
13.6573    20
13.6623    20
13.6673    21
13.6723    20
13.6773    19
13.6823    22
13.6873    25
13.6923    18
13.6973    20
13.7023    25
13.7073    28
13.7123    27
13.7173    20
13.7223    25
13.7273    32
13.7323    32
13.7373    30
13.7423    29
13.7473    26
13.7523    29
13.7573    31
13.7623    29
13.7673    24
13.7723    21
13.7773    26
13.7823    33
13.7873    32
13.7923    34
13.7973    42
13.8024    45
13.8074    39
13.8124    28
13.8174    35
13.8224    47
13.8274    51
13.8324    54
13.8374    58
13.8424    61
13.8474    58
13.8524    54
13.8574    52
13.8624    64
13.8674    81
13.8724    93
13.8774    97
13.8824    96
13.8874   112
13.8924   140
13.8974   152
13.9024   139
13.9074   156
13.9124   204
13.9174   228
13.9224   249
13.9274   276
13.9324   307
13.9374   349
13.9424   382
13.9474   407
13.9524   437
13.9574   483
13.9624   536
13.9674   559
13.9724   630
13.9774   738
13.9824   790
13.9874   838
13.9924   885
13.9974   961
14.0024  1058
14.0074  1166
14.0124  1235
14.0174  1314
14.0224  1452
14.0274  1525
14.0324  1583
14.0374  1685
14.0424  1787
14.0474  1874
14.0524  1965
14.0574  2107
14.0624  2260
14.0674  2275
14.0724  2349
14.0774  2506
14.0824  2606
14.0874  2637
14.0924  2705
14.0974  2815
14.1024  2870
14.1074  2959
14.1124  3016
14.1174  2999
14.1225  3049
14.1275  3098
14.1325  3044
14.1375  3120
14.1425  3190
14.1475  3094
14.1525  2988
14.1575  2939
14.1625  3003
14.1675  2995
14.1725  2901
14.1775  2835
14.1825  2832
14.1875  2781
14.1925  2635
14.1975  2508
14.2025  2497
14.2075  2431
14.2125  2298
14.2175  2181
14.2225  2067
14.2275  1955
14.2325  1884
14.2375  1769
14.2425  1686
14.2475  1634
14.2525  1563
14.2575  1433
14.2625  1310
14.2675  1220
14.2725  1147
14.2775  1068
14.2825  1023
14.2875   930
14.2925   839
14.2975   790
14.3025   759
14.3075   700
14.3125   640
14.3175   576
14.3225   552
14.3275   520
14.3325   467
14.3375   396
14.3425   357
14.3475   337
14.3525   302
14.3575   273
14.3625   268
14.3675   223
14.3725   211
14.3775   207
14.3825   184
14.3875   173
14.3925   159
14.3975   135
14.4025   119
14.4075   109
14.4125    96
14.4175    94
14.4225    89
14.4275    90
14.4325    77
14.4375    67
14.4426    57
14.4476    54
14.4526    58
14.4576    60
14.4626    53
14.4676    51
14.4726    48
14.4776    43
14.4826    44
14.4876    39
14.4926    33
14.4976    35
14.5026    40
14.5076    45
14.5126    47
14.5176    48
14.5226    45
14.5276    44
14.5326    40
14.5376    37
14.5426    33
14.5476    42
14.5526    48
14.5576    47
14.5626    55
14.5676    52
14.5726    54
14.5776    53
14.5826    59
14.5876    63
14.5926    62
14.5976    67
14.6026    76
14.6076    81
14.6126    80
14.6176    85
14.6226    91
14.6276   100
14.6326   107
14.6376   107
14.6426   100
14.6476   108
14.6526   112
14.6576   102
14.6626   113
14.6676   119
14.6726   121
14.6776   125
14.6826   134
14.6876   132
14.6926   138
14.6976   130
14.7026   126
14.7076   153
14.7126   156
14.7176   152
14.7226   162
14.7276   172
14.7326   155
14.7376   150
14.7426   161
14.7476   150
14.7526   153
14.7576   154
14.7627   149
14.7677   151
14.7727   145
14.7777   151
14.7827   154
14.7877   132
14.7927   120
14.7977   145
14.8027   150
14.8077   126
14.8127   114
14.8177   122
14.8227   140
14.8277   147
14.8327   119
14.8377   104
14.8427   104
14.8477    89
14.8527    89
14.8577    83
14.8627    93
14.8677    83
14.8727    64
14.8777    60
14.8827    63
14.8877    63
14.8927    57
14.8977    60
14.9027    50
14.9077    52
14.9127    55
14.9177    48
14.9227    49
14.9277    45
14.9327    44
14.9377    40
14.9427    48
14.9477    42
14.9527    38
14.9577    39
14.9627    37
14.9677    40
14.9727    42
14.9777    33
14.9827    20
14.9877    25
14.9927    29
14.9977    30
15.0027    33
15.0077    35
15.0127    39
15.0177    41
15.0227    38
15.0277    29
15.0327    30
15.0377    38
15.0427    38
15.0477    39
15.0527    36
15.0577    36
15.0627    39
15.0677    44
15.0727    44
15.0777    41
15.0827    39
15.0878    47
15.0928    48
15.0978    46
15.1028    41
15.1078    43
15.1128    47
15.1178    47
15.1228    47
15.1278    65
15.1328    62
15.1378    46
15.1428    44
15.1478    52
15.1528    56
15.1578    56
15.1628    47
15.1678    45
15.1728    50
15.1778    57
15.1828    45
15.1878    39
15.1928    40
15.1978    50
15.2028    49
15.2078    37
15.2128    45
15.2178    51
15.2228    48
15.2278    40
15.2328    31
15.2378    36
15.2428    45
15.2478    45
15.2528    34
15.2578    41
15.2628    43
15.2678    40
15.2728    34
15.2778    35
15.2828    38
15.2878    37
15.2928    31
15.2978    27
15.3028    32
15.3078    29
15.3128    28
15.3178    29
15.3228    31
15.3278    31
15.3328    28
15.3378    27
15.3428    20
15.3478    23
15.3528    20
15.3578    24
15.3628    15
15.3678    22
15.3728    25
15.3778    22
15.3828    21
15.3878    20
15.3928    20
15.3978    19
15.4028    22
15.4079    17
15.4129    21
15.4179    27
15.4229    23
15.4279    23
15.4329    20
15.4379    20
15.4429    21
15.4479    26
15.4529    23
15.4579    26
15.4629    20
15.4679    19
15.4729    22
15.4779    25
15.4829    25
15.4879    20
15.4929    18
15.4979    20
15.5029    23
15.5079    31
15.5129    26
15.5179    25
15.5229    25
15.5279    28
15.5329    30
15.5379    18
15.5429    18
15.5479    27
15.5529    34
15.5579    30
15.5629    39
15.5679    29
15.5729    32
15.5779    39
15.5829    40
15.5879    38
15.5929    45
15.5979    41
15.6029    45
15.6079    48
15.6129    49
15.6179    56
15.6229    58
15.6279    61
15.6329    66
15.6379    69
15.6429    80
15.6479    84
15.6529    92
15.6579   105
15.6629   110
15.6679   121
15.6729   126
15.6779   129
15.6829   139
15.6879   145
15.6929   169
15.6979   209
15.7029   209
15.7079   205
15.7129   231
15.7179   227
15.7229   256
 15.728   267
 15.733   284
 15.738   294
 15.743   318
 15.748   308
 15.753   320
 15.758   327
 15.763   326
 15.768   336
 15.773   376
 15.778   385
 15.783   384
 15.788   401
 15.793   408
 15.798   438
 15.803   431
 15.808   428
 15.813   447
 15.818   450
 15.823   422
 15.828   433
 15.833   417
 15.838   422
 15.843   429
 15.848   441
 15.853   457
 15.858   420
 15.863   377
 15.868   393
 15.873   412
 15.878   385
 15.883   374
 15.888   348
 15.893   332
 15.898   332
 15.903   319
 15.908   307
 15.913   289
 15.918   272
 15.923   259
 15.928   236
 15.933   230
 15.938   233
 15.943   212
 15.948   215
 15.953   202
 15.958   180
 15.963   193
 15.968   157
 15.973   143
 15.978   155
 15.983   151
 15.988   144
 15.993   134
 15.998   124
 16.003   120
 16.008   120
 16.013   108
 16.018   106
 16.023   106
 16.028   113
 16.033   113
 16.038   106
 16.043   104
16.0481    97
16.0531   104
16.0581   109
16.0631   100
16.0681    88
16.0731    92
16.0781    95
16.0831    90
16.0881    83
16.0931    92
16.0981    94
16.1031    99
16.1081   106
16.1131    82
16.1181    89
16.1231    91
16.1281    83
16.1331    75
16.1381    91
16.1431    75
16.1481    69
16.1531    71
16.1581    69
16.1631    86
16.1681    79
16.1731    79
16.1781    82
16.1831    82
16.1881    66
16.1931    76
16.1981    73
16.2031    71
16.2081    68
16.2131    61
16.2181    52
16.2231    50
16.2281    64
16.2331    69
16.2381    64
16.2431    59
16.2481    61
16.2531    59
16.2581    55
16.2631    65
16.2681    68
16.2731    63
16.2781    66
16.2831    69
16.2881    63
16.2931    57
16.2981    68
16.3031    84
16.3081    76
16.3131    68
16.3181    71
16.3231    74
16.3281    74
16.3331    74
16.3381    83
16.3431    79
16.3481    87
16.3531    92
16.3581    76
16.3631    84
16.3682    86
16.3732    84
16.3782    98
16.3832    93
16.3882    86
16.3932    91
16.3982   104
16.4032    83
16.4082    76
16.4132    89
16.4182    80
16.4232    83
16.4282   107
16.4332   117
16.4382   114
16.4432   108
16.4482   108
16.4532   102
16.4582   118
16.4632   115
16.4682   106
16.4732   110
16.4782   117
16.4832   112
16.4882   111
16.4932   125
16.4982   123
16.5032   145
16.5082   131
16.5132   133
16.5182   144
16.5232   137
16.5282   135
16.5332   154
16.5382   149
16.5432   168
16.5482   164
16.5532   158
16.5582   166
16.5632   169
16.5682   141
16.5732   149
16.5782   144
16.5832   140
16.5882   155
16.5932   140
16.5982   152
16.6032   158
16.6082   164
16.6132   163
16.6182   186
16.6232   184
16.6282   168
16.6332   172
16.6382   167
16.6432   178
16.6482   178
16.6532   181
16.6582   194
16.6632   211
16.6682   201
16.6732   186
16.6782   193
16.6832   199
16.6882   216
16.6933   222
16.6983   184
16.7033   191
16.7083   218
16.7133   208
16.7183   217
16.7233   190
16.7283   199
16.7333   224
16.7383   212
16.7433   205
16.7483   216
16.7533   224
16.7583   227
16.7633   232
16.7683   207
16.7733   208
16.7783   241
16.7833   219
16.7883   222
16.7933   232
16.7983   232
16.8033   232
16.8083   237
16.8133   243
16.8183   241
16.8233   248
16.8283   230
16.8333   226
16.8383   259
16.8433   270
16.8483   232
16.8533   227
16.8583   243
16.8633   267
16.8683   246
16.8733   255
16.8783   252
16.8833   245
16.8883   267
16.8933   273
16.8983   293
16.9033   294
16.9083   282
16.9133   293
16.9183   288
16.9233   245
16.9283   242
16.9333   257
16.9383   248
16.9433   269
16.9483   259
16.9533   266
16.9583   282
16.9633   282
16.9683   254
16.9733   288
16.9783   279
16.9833   290
16.9883   270
16.9933   276
16.9983   288
17.0033   293
17.0083   302
17.0134   269
17.0184   281
17.0234   301
17.0284   280
17.0334   283
17.0384   252
17.0434   287
17.0484   284
17.0534   282
17.0584   287
17.0634   286
17.0684   293
17.0734   281
17.0784   277
17.0834   285
17.0884   289
17.0934   295
17.0984   273
17.1034   279
17.1084   265
17.1134   292
17.1184   314
17.1234   308
17.1284   290
17.1334   307
17.1384   297
17.1434   296
17.1484   301
17.1534   315
17.1584   292
17.1634   320
17.1684   308
17.1734   315
17.1784   320
17.1834   308
17.1884   329
17.1934   368
17.1984   321
17.2034   363
17.2084   368
17.2134   371
17.2184   344
17.2234   390
17.2284   393
17.2334   426
17.2384   393
17.2434   386
17.2484   430
17.2534   456
17.2584   441
17.2634   470
17.2684   444
17.2734   446
17.2784   445
17.2834   512
17.2884   517
17.2934   527
17.2984   541
17.3034   563
17.3084   589
17.3134   628
17.3184   625
17.3234   621
17.3284   647
17.3335   709
17.3385   686
17.3435   729
17.3485   782
17.3535   766
17.3585   755
17.3635   731
17.3685   771
17.3735   838
17.3785   818
17.3835   874
17.3885   845
17.3935   877
17.3985   880
17.4035   866
17.4085   882
17.4135   881
17.4185   872
17.4235   970
17.4285   960
17.4335   918
17.4385   936
17.4435   896
17.4485   873
17.4535   939
17.4585   939
17.4635   914
17.4685   907
17.4735   877
17.4785   898
17.4835   863
17.4885   860
17.4935   839
17.4985   822
17.5035   774
17.5085   734
17.5135   687
17.5185   700
17.5235   680
17.5285   648
17.5335   609
17.5385   612
17.5435   537
17.5485   553
17.5535   531
17.5585   510
17.5635   449
17.5685   433
17.5735   444
17.5785   398
17.5835   361
17.5885   384
17.5935   345
17.5985   288
17.6035   262
17.6085   258
17.6135   246
17.6185   215
17.6235   207
17.6285   183
17.6335   176
17.6385   158
17.6435   142
17.6485   159
17.6536   138
17.6586   111
17.6636   113
17.6686   107
17.6736    97
17.6786    73
17.6836    70
17.6886    66
17.6936    72
17.6986    76
17.7036    61
17.7086    60
17.7136    56
17.7186    48
17.7236    45
17.7286    42
17.7336    53
17.7386    48
17.7436    45
17.7486    33
17.7536    36
17.7586    28
17.7636    21
17.7686    23
17.7736    29
17.7786    25
17.7836    30
17.7886    22
17.7936    26
17.7986    30
17.8036    20
17.8086    20
17.8136    24
17.8186    23
17.8236    21
17.8286    18
17.8336    12
17.8386    18
17.8436    18
17.8486    15
17.8536    21
17.8586    22
17.8636    16
17.8686    15
17.8736    14
17.8786    14
17.8836    24
17.8886    24
17.8936    18
17.8986    19
17.9036    16
17.9086    13
17.9136    12
17.9186    18
17.9236    22
17.9286    14
17.9336    14
17.9386    10
17.9436    15
17.9486    15
17.9536    11
17.9586     9
17.9636    10
17.9686    13
17.9737    17
17.9787    11
17.9837    14
17.9887    17
17.9937    16
17.9987    14
18.0037    11
18.0087    13
18.0137    18
18.0187    10
18.0237     7
18.0287    13
18.0337    10
18.0387     9
18.0437    13
18.0487    10
18.0537     8
18.0587     6
18.0637    11
18.0687    10
18.0737    14
18.0787     8
18.0837     9
18.0887    12
18.0937    11
18.0987    10
18.1037     8
18.1087     7
18.1137     9
18.1187     7
18.1237     9
18.1287     7
18.1337     5
18.1387     7
18.1437     7
18.1487     6
18.1537     6
18.1587     8
18.1637     7
18.1687     4
18.1737     7
18.1787     7
18.1837     4
18.1887     5
18.1937     4
18.1987     4
18.2037     6
18.2087     6
18.2137     5
18.2187     4
18.2237     5
18.2287     6
18.2337     3
18.2387     4
18.2437     5
18.2487     3
18.2537     4
18.2587     4
18.2637     4
18.2687     6
18.2737     5
18.2787     4
18.2837     3
18.2887     5
18.2937     6
18.2988     4
18.3038     5
18.3088     4
18.3138     5
18.3188     4
18.3238     4
18.3288     6
18.3338     6
18.3388     6
18.3438     3
18.3488     2
18.3538     3
18.3588     2
18.3638     2
18.3688     3
18.3738     1
18.3788     0
18.3838     2
18.3888     1
18.3938     3
18.3988     4
18.4038     2
18.4088     2
18.4138     3
18.4188     5
18.4238     5
18.4288     6
18.4338     4
18.4388     3
18.4438     7
18.4488     5
18.4538     9
18.4588     7
18.4638     4
18.4688     3
18.4738     8
18.4788     5
18.4838     3
18.4888     5
18.4938     3
18.4988     2
18.5038     5
18.5088     6
18.5138     7
18.5188     5
18.5238     5
18.5288     5
18.5338     8
18.5388    13
18.5438     9
18.5488     3
18.5538     5
18.5588     5
18.5638     4
18.5688     5
18.5738    11
18.5788     9
18.5838     5
18.5888     5
18.5938     4
18.5988     6
18.6038     9
18.6088     8
18.6138     3
18.6189     5
18.6239     9
18.6289     6
18.6339     2
18.6389     3
18.6439     6
18.6489     4
18.6539    10
18.6589    12
18.6639     5
18.6689     1
18.6739     3
18.6789     6
18.6839     7
18.6889     6
18.6939     5
18.6989     4
18.7039     4
18.7089     5
18.7139     3
18.7189     3
18.7239     5
18.7289     2
18.7339     2
18.7389     4
18.7439     7
18.7489     5
18.7539     5
18.7589     3
18.7639     4
18.7689     5
18.7739     3
18.7789     5
18.7839     5
18.7889     4
18.7939     2
18.7989     2
18.8039     4
18.8089     5
18.8139     3
18.8189     3
18.8239     2
18.8289     4
18.8339     3
18.8389     2
18.8439     1
18.8489     3
18.8539     3
18.8589     2
18.8639     1
18.8689     3
18.8739     1
18.8789     4
18.8839     4
18.8889     3
18.8939     2
18.8989     3
18.9039     4
18.9089     2
18.9139     4
18.9189     3
18.9239     3
18.9289     2
18.9339     4
 18.939     3
 18.944     4
 18.949     4
 18.954     2
 18.959     2
 18.964     6
 18.969     5
 18.974     6
 18.979     6
 18.984     4
 18.989     3
 18.994     5
 18.999     6
 19.004     6
 19.009     5
 19.014     9
 19.019     6
 19.024     3
 19.029     4
 19.034     5
 19.039     6
 19.044     5
 19.049     4
 19.054     5
 19.059     5
 19.064     5
 19.069     8
 19.074     6
 19.079     5
 19.084     4
 19.089     6
 19.094     4
 19.099     6
 19.104     8
 19.109     5
 19.114     3
 19.119     4
 19.124     6
 19.129     5
 19.134     4
 19.139     2
 19.144     8
 19.149    10
 19.154     6
 19.159     6
 19.164     6
 19.169     3
 19.174     4
 19.179     5
 19.184     9
 19.189     7
 19.194     3
 19.199     2
 19.204     4
 19.209     6
 19.214     9
 19.219     6
 19.224     4
 19.229     5
 19.234     3
 19.239     6
 19.244     4
 19.249     6
 19.254     4
19.2591     2
19.2641     2
19.2691     4
19.2741     3
19.2791     2
19.2841     3
19.2891     3
19.2941     5
19.2991     3
19.3041     3
19.3091     3
19.3141     3
19.3191     4
19.3241     5
19.3291     5
19.3341     3
19.3391     2
19.3441     4
19.3491     3
19.3541     2
19.3591     6
19.3641     6
19.3691     4
19.3741     6
19.3791     3
19.3841     2
19.3891     2
19.3941     1
19.3991     3
19.4041     4
19.4091     4
19.4141     3
19.4191     3
19.4241     5
19.4291     4
19.4341     3
19.4391     5
19.4441     4
19.4491     2
19.4541     3
19.4591     2
19.4641     3
19.4691     2
19.4741     3
19.4791     2
19.4841     2
19.4891     3
19.4941     3
19.4991     6
19.5041     3
19.5091     3
19.5141     2
19.5191     1
19.5241     2
19.5291     3
19.5341     3
19.5391     3
19.5441     3
19.5491     3
19.5541     2
19.5591     1
19.5641     5
19.5691     4
19.5741     4
19.5792     5
19.5842     2
19.5892     3
19.5942     7
19.5992     8
19.6042     7
19.6092     3
19.6142     3
19.6192     2
19.6242     3
19.6292     1
19.6342     3
19.6392     5
19.6442     3
19.6492     4
19.6542     4
19.6592     3
19.6642     5
19.6692     4
19.6742     4
19.6792     4
19.6842     3
19.6892     3
19.6942     4
19.6992     4
19.7042     3
19.7092     3
19.7142     4
19.7192     7
19.7242     5
19.7292     6
19.7342     5
19.7392     3
19.7442     3
19.7492     1
19.7542     4
19.7592     4
19.7642     2
19.7692     1
19.7742     2
19.7792     6
19.7842     3
19.7892     5
19.7942     4
19.7992     5
19.8042     3
19.8092     3
19.8142     5
19.8192     4
19.8242     4
19.8292     5
19.8342     4
19.8392     4
19.8442     4
19.8492     3
19.8542     5
19.8592     6
19.8642     4
19.8692     4
19.8742     4
19.8792     3
19.8842     3
19.8892     2
19.8942     1
19.8992     3
19.9043     3
19.9093     1
19.9143     2
19.9193     2
19.9243     1
19.9293     2
19.9343     3
19.9393     4
19.9443     6
19.9493     5
19.9543     5
19.9593     4
19.9643     2
19.9693     2
19.9743     4
19.9793     5
19.9843     4
19.9893     5
19.9943     3
19.9993     2
20.0043     3
20.0093     1
